{
  "resourceType": "Bundle",
  "type": "collection",
  "entry": [
    {
      "fullUrl": "http://example.org/fhir/Patient/patient-1",
      "resource": {
        "resourceType": "Patient",
        "id": "patient-1",
        "name": [
          {
            "use": "official",
            "family": "Carter",
            "given": [
              "Linda"
            ]
          }
        ],
        "gender": "female",
        "birthDate": "1986-12-30",
        "address": [
          {
            "use": "home",
            "line": [
              "0371 Kelley Radial"
            ],
            "city": "Schmidttown",
            "state": "Illinois",
            "postalCode": "69403"
          }
        ],
        "maritalStatus": {
          "coding": [
            {
              "system": "http://terminology.hl7.org/CodeSystem/v3-MaritalStatus",
              "code": "S"
            }
          ]
        }
      }
    },
    {
      "fullUrl": "http://example.org/fhir/Observation/observation-1-bmi",
      "resource": {
        "resourceType": "Observation",
        "id": "observation-1-bmi",
        "status": "final",
        "code": {
          "coding": [
            {
              "system": "http://loinc.org",
              "code": "39156-5",
              "display": "Body mass index (BMI) [Ratio]"
            }
          ]
        },
        "subject": {
          "reference": "Patient/patient-1"
        },
        "effectiveDateTime": "2018-01-03T00:00:00Z",
        "valueQuantity": {
          "value": 38.5,
          "unit": "kg/m2",
          "system": "http://unitsofmeasure.org",
          "code": "kg/m2"
        }
      }
    },
    {
      "fullUrl": "http://example.org/fhir/Observation/observation-1-bp",
      "resource": {
        "resourceType": "Observation",
        "id": "observation-1-bp",
        "status": "final",
        "code": {
          "coding": [
            {
              "system": "http://loinc.org",
              "code": "85354-9",
              "display": "Blood pressure panel with all children optional"
            }
          ]
        },
        "subject": {
          "reference": "Patient/patient-1"
        },
        "effectiveDateTime": "2017-04-20T00:00:00Z",
        "component": [
          {
            "code": {
              "coding": [
                {
                  "system": "http://loinc.org",
                  "code": "8480-6",
                  "display": "Systolic blood pressure"
                }
              ]
            },
            "valueQuantity": {
              "value": 159,
              "unit": "mmHg",
              "system": "http://unitsofmeasure.org",
              "code": "mm[Hg]"
            }
          },
          {
            "code": {
              "coding": [
                {
                  "system": "http://loinc.org",
                  "code": "8462-4",
                  "display": "Diastolic blood pressure"
                }
              ]
            },
            "valueQuantity": {
              "value": 94,
              "unit": "mmHg",
              "system": "http://unitsofmeasure.org",
              "code": "mm[Hg]"
            }
          }
        ]
      }
    },
    {
      "fullUrl": "http://example.org/fhir/Observation/observation-1-cholesterol",
      "resource": {
        "resourceType": "Observation",
        "id": "observation-1-cholesterol",
        "status": "final",
        "code": {
          "coding": [
            {
              "system": "http://loinc.org",
              "code": "2093-3",
              "display": "Cholesterol total"
            }
          ]
        },
        "subject": {
          "reference": "Patient/patient-1"
        },
        "effectiveDateTime": "2018-08-15T00:00:00Z",
        "valueQuantity": {
          "value": 211,
          "unit": "mg/dL",
          "system": "http://unitsofmeasure.org",
          "code": "mg/dL"
        }
      }
    },
    {
      "fullUrl": "http://example.org/fhir/MedicationStatement/medication-1",
      "resource": {
        "resourceType": "MedicationStatement",
        "id": "medication-1",
        "status": "active",
        "medicationCodeableConcept": {
          "coding": [
            {
              "system": "http://www.nlm.nih.gov/research/umls/rxnorm",
              "code": "2123111",
              "display": "albuterol 90 MCG/INHAL Metered Dose Inhaler, 200 Actuations, generic for Proventil"
            }
          ]
        },
        "subject": {
          "reference": "Patient/patient-1"
        },
        "effectiveDateTime": "2017-03-03T00:00:00Z",
        "dosage": [
          {
            "text": "Take 1 tablet of albuterol 90 MCG/INHAL Metered Dose Inhaler, 200 Actuations, generic for Proventil",
            "timing": {
              "repeat": {
                "frequency": 2,
                "period": 1,
                "periodUnit": "d"
              }
            },
            "doseAndRate": [
              {
                "doseQuantity": {
                  "value": 1,
                  "unit": "tablet"
                }
              }
            ]
          }
        ]
      }
    },
    {
      "fullUrl": "http://example.org/fhir/Patient/patient-2",
      "resource": {
        "resourceType": "Patient",
        "id": "patient-2",
        "name": [
          {
            "use": "official",
            "family": "Coleman",
            "given": [
              "Dakota"
            ]
          }
        ],
        "gender": "male",
        "birthDate": "1987-05-11",
        "address": [
          {
            "use": "home",
            "line": [
              "3737 Jones Gardens"
            ],
            "city": "South Debbiehaven",
            "state": "Virginia",
            "postalCode": "76145"
          }
        ],
        "maritalStatus": {
          "coding": [
            {
              "system": "http://terminology.hl7.org/CodeSystem/v3-MaritalStatus",
              "code": "S"
            }
          ]
        }
      }
    },
    {
      "fullUrl": "http://example.org/fhir/Observation/observation-2-bmi",
      "resource": {
        "resourceType": "Observation",
        "id": "observation-2-bmi",
        "status": "final",
        "code": {
          "coding": [
            {
              "system": "http://loinc.org",
              "code": "39156-5",
              "display": "Body mass index (BMI) [Ratio]"
            }
          ]
        },
        "subject": {
          "reference": "Patient/patient-2"
        },
        "effectiveDateTime": "2018-06-20T00:00:00Z",
        "valueQuantity": {
          "value": 25.7,
          "unit": "kg/m2",
          "system": "http://unitsofmeasure.org",
          "code": "kg/m2"
        }
      }
    },
    {
      "fullUrl": "http://example.org/fhir/Observation/observation-2-bp",
      "resource": {
        "resourceType": "Observation",
        "id": "observation-2-bp",
        "status": "final",
        "code": {
          "coding": [
            {
              "system": "http://loinc.org",
              "code": "85354-9",
              "display": "Blood pressure panel with all children optional"
            }
          ]
        },
        "subject": {
          "reference": "Patient/patient-2"
        },
        "effectiveDateTime": "2019-10-08T00:00:00Z",
        "component": [
          {
            "code": {
              "coding": [
                {
                  "system": "http://loinc.org",
                  "code": "8480-6",
                  "display": "Systolic blood pressure"
                }
              ]
            },
            "valueQuantity": {
              "value": 176,
              "unit": "mmHg",
              "system": "http://unitsofmeasure.org",
              "code": "mm[Hg]"
            }
          },
          {
            "code": {
              "coding": [
                {
                  "system": "http://loinc.org",
                  "code": "8462-4",
                  "display": "Diastolic blood pressure"
                }
              ]
            },
            "valueQuantity": {
              "value": 73,
              "unit": "mmHg",
              "system": "http://unitsofmeasure.org",
              "code": "mm[Hg]"
            }
          }
        ]
      }
    },
    {
      "fullUrl": "http://example.org/fhir/Observation/observation-2-cholesterol",
      "resource": {
        "resourceType": "Observation",
        "id": "observation-2-cholesterol",
        "status": "final",
        "code": {
          "coding": [
            {
              "system": "http://loinc.org",
              "code": "2093-3",
              "display": "Cholesterol total"
            }
          ]
        },
        "subject": {
          "reference": "Patient/patient-2"
        },
        "effectiveDateTime": "2019-12-05T00:00:00Z",
        "valueQuantity": {
          "value": 166,
          "unit": "mg/dL",
          "system": "http://unitsofmeasure.org",
          "code": "mg/dL"
        }
      }
    },
    {
      "fullUrl": "http://example.org/fhir/MedicationStatement/medication-2",
      "resource": {
        "resourceType": "MedicationStatement",
        "id": "medication-2",
        "status": "active",
        "medicationCodeableConcept": {
          "coding": [
            {
              "system": "http://www.nlm.nih.gov/research/umls/rxnorm",
              "code": "308416",
              "display": "aspirin 81 MG Delayed Release Oral Tablet"
            }
          ]
        },
        "subject": {
          "reference": "Patient/patient-2"
        },
        "effectiveDateTime": "2017-12-23T00:00:00Z",
        "dosage": [
          {
            "text": "Take 1 tablet of aspirin 81 MG Delayed Release Oral Tablet",
            "timing": {
              "repeat": {
                "frequency": 2,
                "period": 1,
                "periodUnit": "d"
              }
            },
            "doseAndRate": [
              {
                "doseQuantity": {
                  "value": 1,
                  "unit": "tablet"
                }
              }
            ]
          }
        ]
      }
    }
  ]
}