{
  "resourceType": "Bundle",
  "type": "collection",
  "entry": [
    {
      "fullUrl": "http://example.org/fhir/Patient/patient-1",
      "resource": {
        "resourceType": "Patient",
        "id": "patient-1",
        "name": [
          {
            "use": "official",
            "family": "Wallace",
            "given": [
              "Wendy"
            ]
          }
        ],
        "gender": "male",
        "birthDate": "1983-07-03",
        "address": [
          {
            "use": "home",
            "line": [
              "0823 Ariana Keys Apt. 665"
            ],
            "city": "Roberthaven",
            "state": "Illinois",
            "postalCode": "51472"
          }
        ],
        "maritalStatus": {
          "coding": [
            {
              "system": "http://terminology.hl7.org/CodeSystem/v3-MaritalStatus",
              "code": "W"
            }
          ]
        }
      }
    },
    {
      "fullUrl": "http://example.org/fhir/Observation/observation-1-bmi",
      "resource": {
        "resourceType": "Observation",
        "id": "observation-1-bmi",
        "status": "final",
        "code": {
          "coding": [
            {
              "system": "http://loinc.org",
              "code": "39156-5",
              "display": "Body mass index (BMI) [Ratio]"
            }
          ]
        },
        "subject": {
          "reference": "Patient/patient-1"
        },
        "effectiveDateTime": "2024-01-20T05:55:50.025164Z",
        "valueQuantity": {
          "value": 19.9,
          "unit": "kg/m2",
          "system": "http://unitsofmeasure.org",
          "code": "kg/m2"
        }
      }
    },
    {
      "fullUrl": "http://example.org/fhir/Observation/observation-1-bp",
      "resource": {
        "resourceType": "Observation",
        "id": "observation-1-bp",
        "status": "final",
        "code": {
          "coding": [
            {
              "system": "http://loinc.org",
              "code": "85354-9",
              "display": "Blood pressure panel with all children optional"
            }
          ]
        },
        "subject": {
          "reference": "Patient/patient-1"
        },
        "effectiveDateTime": "2024-01-20T05:55:50.025164Z",
        "component": [
          {
            "code": {
              "coding": [
                {
                  "system": "http://loinc.org",
                  "code": "8480-6",
                  "display": "Systolic blood pressure"
                }
              ]
            },
            "valueQuantity": {
              "value": 116,
              "unit": "mmHg",
              "system": "http://unitsofmeasure.org",
              "code": "mm[Hg]"
            }
          },
          {
            "code": {
              "coding": [
                {
                  "system": "http://loinc.org",
                  "code": "8462-4",
                  "display": "Diastolic blood pressure"
                }
              ]
            },
            "valueQuantity": {
              "value": 85,
              "unit": "mmHg",
              "system": "http://unitsofmeasure.org",
              "code": "mm[Hg]"
            }
          }
        ]
      }
    },
    {
      "fullUrl": "http://example.org/fhir/Observation/observation-1-cholesterol",
      "resource": {
        "resourceType": "Observation",
        "id": "observation-1-cholesterol",
        "status": "final",
        "code": {
          "coding": [
            {
              "system": "http://loinc.org",
              "code": "2093-3",
              "display": "Cholesterol total"
            }
          ]
        },
        "subject": {
          "reference": "Patient/patient-1"
        },
        "effectiveDateTime": "2024-01-20T05:55:50.025164Z",
        "valueQuantity": {
          "value": 233,
          "unit": "mg/dL",
          "system": "http://unitsofmeasure.org",
          "code": "mg/dL"
        }
      }
    },
    {
      "fullUrl": "http://example.org/fhir/MedicationStatement/medication-1",
      "resource": {
        "resourceType": "MedicationStatement",
        "id": "medication-1",
        "status": "active",
        "medicationCodeableConcept": {
          "coding": [
            {
              "system": "http://www.nlm.nih.gov/research/umls/rxnorm",
              "code": "2123111",
              "display": "albuterol 90 MCG/INHAL Metered Dose Inhaler, 200 Actuations, generic for Proventil"
            }
          ]
        },
        "subject": {
          "reference": "Patient/patient-1"
        },
        "effectiveDateTime": "2024-01-20T05:55:50.025164Z",
        "dosage": [
          {
            "text": "Take 1 tablet of albuterol 90 MCG/INHAL Metered Dose Inhaler, 200 Actuations, generic for Proventil",
            "timing": {
              "repeat": {
                "frequency": 2,
                "period": 1,
                "periodUnit": "d"
              }
            },
            "doseAndRate": [
              {
                "doseQuantity": {
                  "value": 1,
                  "unit": "tablet"
                }
              }
            ]
          }
        ]
      }
    },
    {
      "fullUrl": "http://example.org/fhir/Patient/patient-2",
      "resource": {
        "resourceType": "Patient",
        "id": "patient-2",
        "name": [
          {
            "use": "official",
            "family": "Bernard",
            "given": [
              "Paul"
            ]
          }
        ],
        "gender": "female",
        "birthDate": "1961-03-27",
        "address": [
          {
            "use": "home",
            "line": [
              "5687 Gonzalez Point"
            ],
            "city": "Garzaside",
            "state": "South Dakota",
            "postalCode": "96776"
          }
        ],
        "maritalStatus": {
          "coding": [
            {
              "system": "http://terminology.hl7.org/CodeSystem/v3-MaritalStatus",
              "code": "M"
            }
          ]
        }
      }
    },
    {
      "fullUrl": "http://example.org/fhir/Observation/observation-2-bmi",
      "resource": {
        "resourceType": "Observation",
        "id": "observation-2-bmi",
        "status": "final",
        "code": {
          "coding": [
            {
              "system": "http://loinc.org",
              "code": "39156-5",
              "display": "Body mass index (BMI) [Ratio]"
            }
          ]
        },
        "subject": {
          "reference": "Patient/patient-2"
        },
        "effectiveDateTime": "2024-01-20T05:55:50.026164Z",
        "valueQuantity": {
          "value": 33.7,
          "unit": "kg/m2",
          "system": "http://unitsofmeasure.org",
          "code": "kg/m2"
        }
      }
    },
    {
      "fullUrl": "http://example.org/fhir/Observation/observation-2-bp",
      "resource": {
        "resourceType": "Observation",
        "id": "observation-2-bp",
        "status": "final",
        "code": {
          "coding": [
            {
              "system": "http://loinc.org",
              "code": "85354-9",
              "display": "Blood pressure panel with all children optional"
            }
          ]
        },
        "subject": {
          "reference": "Patient/patient-2"
        },
        "effectiveDateTime": "2024-01-20T05:55:50.026164Z",
        "component": [
          {
            "code": {
              "coding": [
                {
                  "system": "http://loinc.org",
                  "code": "8480-6",
                  "display": "Systolic blood pressure"
                }
              ]
            },
            "valueQuantity": {
              "value": 114,
              "unit": "mmHg",
              "system": "http://unitsofmeasure.org",
              "code": "mm[Hg]"
            }
          },
          {
            "code": {
              "coding": [
                {
                  "system": "http://loinc.org",
                  "code": "8462-4",
                  "display": "Diastolic blood pressure"
                }
              ]
            },
            "valueQuantity": {
              "value": 71,
              "unit": "mmHg",
              "system": "http://unitsofmeasure.org",
              "code": "mm[Hg]"
            }
          }
        ]
      }
    },
    {
      "fullUrl": "http://example.org/fhir/Observation/observation-2-cholesterol",
      "resource": {
        "resourceType": "Observation",
        "id": "observation-2-cholesterol",
        "status": "final",
        "code": {
          "coding": [
            {
              "system": "http://loinc.org",
              "code": "2093-3",
              "display": "Cholesterol total"
            }
          ]
        },
        "subject": {
          "reference": "Patient/patient-2"
        },
        "effectiveDateTime": "2024-01-20T05:55:50.026164Z",
        "valueQuantity": {
          "value": 208,
          "unit": "mg/dL",
          "system": "http://unitsofmeasure.org",
          "code": "mg/dL"
        }
      }
    },
    {
      "fullUrl": "http://example.org/fhir/MedicationStatement/medication-2",
      "resource": {
        "resourceType": "MedicationStatement",
        "id": "medication-2",
        "status": "active",
        "medicationCodeableConcept": {
          "coding": [
            {
              "system": "http://www.nlm.nih.gov/research/umls/rxnorm",
              "code": "2003656",
              "display": "Omeprazole 20 MG Disintegrating Oral Tablet"
            }
          ]
        },
        "subject": {
          "reference": "Patient/patient-2"
        },
        "effectiveDateTime": "2024-01-20T05:55:50.026164Z",
        "dosage": [
          {
            "text": "Take 1 tablet of Omeprazole 20 MG Disintegrating Oral Tablet",
            "timing": {
              "repeat": {
                "frequency": 2,
                "period": 1,
                "periodUnit": "d"
              }
            },
            "doseAndRate": [
              {
                "doseQuantity": {
                  "value": 1,
                  "unit": "tablet"
                }
              }
            ]
          }
        ]
      }
    }
  ]
}