{
  "resourceType": "Bundle",
  "type": "collection",
  "entry": [
    {
      "fullUrl": "http://example.org/fhir/Patient/patient-1",
      "resource": {
        "resourceType": "Patient",
        "id": "patient-1",
        "name": [
          {
            "use": "official",
            "family": "Sanders",
            "given": [
              "Amanda"
            ]
          }
        ],
        "gender": "female",
        "birthDate": "1988-07-15",
        "address": [
          {
            "use": "home",
            "line": [
              "4538 Harrison Pike"
            ],
            "city": "Robertsonside",
            "state": "West Virginia",
            "postalCode": "51531"
          }
        ],
        "maritalStatus": {
          "coding": [
            {
              "system": "http://terminology.hl7.org/CodeSystem/v3-MaritalStatus",
              "code": "S"
            }
          ]
        }
      }
    },
    {
      "fullUrl": "http://example.org/fhir/Observation/observation-1-bmi",
      "resource": {
        "resourceType": "Observation",
        "id": "observation-1-bmi",
        "status": "final",
        "code": {
          "coding": [
            {
              "system": "http://loinc.org",
              "code": "39156-5",
              "display": "Body mass index (BMI) [Ratio]"
            }
          ]
        },
        "subject": {
          "reference": "Patient/patient-1"
        },
        "effectiveDateTime": "2019-10-25T00:00:00Z",
        "valueQuantity": {
          "value": 34.4,
          "unit": "kg/m2",
          "system": "http://unitsofmeasure.org",
          "code": "kg/m2"
        }
      }
    },
    {
      "fullUrl": "http://example.org/fhir/Observation/observation-1-bp",
      "resource": {
        "resourceType": "Observation",
        "id": "observation-1-bp",
        "status": "final",
        "code": {
          "coding": [
            {
              "system": "http://loinc.org",
              "code": "85354-9",
              "display": "Blood pressure panel with all children optional"
            }
          ]
        },
        "subject": {
          "reference": "Patient/patient-1"
        },
        "effectiveDateTime": "2017-06-22T00:00:00Z",
        "component": [
          {
            "code": {
              "coding": [
                {
                  "system": "http://loinc.org",
                  "code": "8480-6",
                  "display": "Systolic blood pressure"
                }
              ]
            },
            "valueQuantity": {
              "value": 178,
              "unit": "mmHg",
              "system": "http://unitsofmeasure.org",
              "code": "mm[Hg]"
            }
          },
          {
            "code": {
              "coding": [
                {
                  "system": "http://loinc.org",
                  "code": "8462-4",
                  "display": "Diastolic blood pressure"
                }
              ]
            },
            "valueQuantity": {
              "value": 90,
              "unit": "mmHg",
              "system": "http://unitsofmeasure.org",
              "code": "mm[Hg]"
            }
          }
        ]
      }
    },
    {
      "fullUrl": "http://example.org/fhir/Observation/observation-1-cholesterol",
      "resource": {
        "resourceType": "Observation",
        "id": "observation-1-cholesterol",
        "status": "final",
        "code": {
          "coding": [
            {
              "system": "http://loinc.org",
              "code": "2093-3",
              "display": "Cholesterol total"
            }
          ]
        },
        "subject": {
          "reference": "Patient/patient-1"
        },
        "effectiveDateTime": "2017-04-25T00:00:00Z",
        "valueQuantity": {
          "value": 163,
          "unit": "mg/dL",
          "system": "http://unitsofmeasure.org",
          "code": "mg/dL"
        }
      }
    },
    {
      "fullUrl": "http://example.org/fhir/MedicationStatement/medication-1",
      "resource": {
        "resourceType": "MedicationStatement",
        "id": "medication-1",
        "status": "active",
        "medicationCodeableConcept": {
          "coding": [
            {
              "system": "http://www.nlm.nih.gov/research/umls/rxnorm",
              "code": "2123111",
              "display": "albuterol 90 MCG/INHAL Metered Dose Inhaler, 200 Actuations, generic for Proventil"
            }
          ]
        },
        "subject": {
          "reference": "Patient/patient-1"
        },
        "effectiveDateTime": "2019-05-15T00:00:00Z",
        "dosage": [
          {
            "text": "Take 1 tablet of albuterol 90 MCG/INHAL Metered Dose Inhaler, 200 Actuations, generic for Proventil",
            "timing": {
              "repeat": {
                "frequency": 2,
                "period": 1,
                "periodUnit": "d"
              }
            },
            "doseAndRate": [
              {
                "doseQuantity": {
                  "value": 1,
                  "unit": "tablet"
                }
              }
            ]
          }
        ]
      }
    },
    {
      "fullUrl": "http://example.org/fhir/Patient/patient-2",
      "resource": {
        "resourceType": "Patient",
        "id": "patient-2",
        "name": [
          {
            "use": "official",
            "family": "Hoffman",
            "given": [
              "Joel"
            ]
          }
        ],
        "gender": "female",
        "birthDate": "1982-05-22",
        "address": [
          {
            "use": "home",
            "line": [
              "434 Harold Mountain"
            ],
            "city": "Jonesland",
            "state": "South Carolina",
            "postalCode": "28844"
          }
        ],
        "maritalStatus": {
          "coding": [
            {
              "system": "http://terminology.hl7.org/CodeSystem/v3-MaritalStatus",
              "code": "M"
            }
          ]
        }
      }
    },
    {
      "fullUrl": "http://example.org/fhir/Observation/observation-2-bmi",
      "resource": {
        "resourceType": "Observation",
        "id": "observation-2-bmi",
        "status": "final",
        "code": {
          "coding": [
            {
              "system": "http://loinc.org",
              "code": "39156-5",
              "display": "Body mass index (BMI) [Ratio]"
            }
          ]
        },
        "subject": {
          "reference": "Patient/patient-2"
        },
        "effectiveDateTime": "2019-12-20T00:00:00Z",
        "valueQuantity": {
          "value": 40.0,
          "unit": "kg/m2",
          "system": "http://unitsofmeasure.org",
          "code": "kg/m2"
        }
      }
    },
    {
      "fullUrl": "http://example.org/fhir/Observation/observation-2-bp",
      "resource": {
        "resourceType": "Observation",
        "id": "observation-2-bp",
        "status": "final",
        "code": {
          "coding": [
            {
              "system": "http://loinc.org",
              "code": "85354-9",
              "display": "Blood pressure panel with all children optional"
            }
          ]
        },
        "subject": {
          "reference": "Patient/patient-2"
        },
        "effectiveDateTime": "2019-03-01T00:00:00Z",
        "component": [
          {
            "code": {
              "coding": [
                {
                  "system": "http://loinc.org",
                  "code": "8480-6",
                  "display": "Systolic blood pressure"
                }
              ]
            },
            "valueQuantity": {
              "value": 174,
              "unit": "mmHg",
              "system": "http://unitsofmeasure.org",
              "code": "mm[Hg]"
            }
          },
          {
            "code": {
              "coding": [
                {
                  "system": "http://loinc.org",
                  "code": "8462-4",
                  "display": "Diastolic blood pressure"
                }
              ]
            },
            "valueQuantity": {
              "value": 68,
              "unit": "mmHg",
              "system": "http://unitsofmeasure.org",
              "code": "mm[Hg]"
            }
          }
        ]
      }
    },
    {
      "fullUrl": "http://example.org/fhir/Observation/observation-2-cholesterol",
      "resource": {
        "resourceType": "Observation",
        "id": "observation-2-cholesterol",
        "status": "final",
        "code": {
          "coding": [
            {
              "system": "http://loinc.org",
              "code": "2093-3",
              "display": "Cholesterol total"
            }
          ]
        },
        "subject": {
          "reference": "Patient/patient-2"
        },
        "effectiveDateTime": "2019-05-29T00:00:00Z",
        "valueQuantity": {
          "value": 225,
          "unit": "mg/dL",
          "system": "http://unitsofmeasure.org",
          "code": "mg/dL"
        }
      }
    },
    {
      "fullUrl": "http://example.org/fhir/MedicationStatement/medication-2",
      "resource": {
        "resourceType": "MedicationStatement",
        "id": "medication-2",
        "status": "active",
        "medicationCodeableConcept": {
          "coding": [
            {
              "system": "http://www.nlm.nih.gov/research/umls/rxnorm",
              "code": "429503",
              "display": "Hydrochlorothiazide 12.5 MG Oral Tablet"
            }
          ]
        },
        "subject": {
          "reference": "Patient/patient-2"
        },
        "effectiveDateTime": "2017-01-05T00:00:00Z",
        "dosage": [
          {
            "text": "Take 1 tablet of Hydrochlorothiazide 12.5 MG Oral Tablet",
            "timing": {
              "repeat": {
                "frequency": 2,
                "period": 1,
                "periodUnit": "d"
              }
            },
            "doseAndRate": [
              {
                "doseQuantity": {
                  "value": 1,
                  "unit": "tablet"
                }
              }
            ]
          }
        ]
      }
    }
  ]
}