{
  "resourceType": "Bundle",
  "type": "collection",
  "entry": [
    {
      "fullUrl": "http://example.org/fhir/Patient/patient-1",
      "resource": {
        "resourceType": "Patient",
        "id": "patient-1",
        "name": [
          {
            "use": "official",
            "family": "Williams",
            "given": [
              "John"
            ]
          }
        ],
        "gender": "male",
        "birthDate": "1966-05-18",
        "address": [
          {
            "use": "home",
            "line": [
              "446 Jennifer Pike"
            ],
            "city": "West Laurenchester",
            "state": "New York",
            "postalCode": "97689"
          }
        ],
        "maritalStatus": {
          "coding": [
            {
              "system": "http://terminology.hl7.org/CodeSystem/v3-MaritalStatus",
              "code": "W"
            }
          ]
        }
      }
    },
    {
      "fullUrl": "http://example.org/fhir/Observation/observation-1-bmi",
      "resource": {
        "resourceType": "Observation",
        "id": "observation-1-bmi",
        "status": "final",
        "code": {
          "coding": [
            {
              "system": "http://loinc.org",
              "code": "39156-5",
              "display": "Body mass index (BMI) [Ratio]"
            }
          ]
        },
        "subject": {
          "reference": "Patient/patient-1"
        },
        "effectiveDateTime": "2017-01-06T00:00:00Z",
        "valueQuantity": {
          "value": 37.3,
          "unit": "kg/m2",
          "system": "http://unitsofmeasure.org",
          "code": "kg/m2"
        }
      }
    },
    {
      "fullUrl": "http://example.org/fhir/Observation/observation-1-bp",
      "resource": {
        "resourceType": "Observation",
        "id": "observation-1-bp",
        "status": "final",
        "code": {
          "coding": [
            {
              "system": "http://loinc.org",
              "code": "85354-9",
              "display": "Blood pressure panel with all children optional"
            }
          ]
        },
        "subject": {
          "reference": "Patient/patient-1"
        },
        "effectiveDateTime": "2017-01-06T00:00:00Z",
        "component": [
          {
            "code": {
              "coding": [
                {
                  "system": "http://loinc.org",
                  "code": "8480-6",
                  "display": "Systolic blood pressure"
                }
              ]
            },
            "valueQuantity": {
              "value": 114,
              "unit": "mmHg",
              "system": "http://unitsofmeasure.org",
              "code": "mm[Hg]"
            }
          },
          {
            "code": {
              "coding": [
                {
                  "system": "http://loinc.org",
                  "code": "8462-4",
                  "display": "Diastolic blood pressure"
                }
              ]
            },
            "valueQuantity": {
              "value": 85,
              "unit": "mmHg",
              "system": "http://unitsofmeasure.org",
              "code": "mm[Hg]"
            }
          }
        ]
      }
    },
    {
      "fullUrl": "http://example.org/fhir/Observation/observation-1-cholesterol",
      "resource": {
        "resourceType": "Observation",
        "id": "observation-1-cholesterol",
        "status": "final",
        "code": {
          "coding": [
            {
              "system": "http://loinc.org",
              "code": "2093-3",
              "display": "Cholesterol total"
            }
          ]
        },
        "subject": {
          "reference": "Patient/patient-1"
        },
        "effectiveDateTime": "2017-01-06T00:00:00Z",
        "valueQuantity": {
          "value": 185,
          "unit": "mg/dL",
          "system": "http://unitsofmeasure.org",
          "code": "mg/dL"
        }
      }
    },
    {
      "fullUrl": "http://example.org/fhir/MedicationStatement/medication-1",
      "resource": {
        "resourceType": "MedicationStatement",
        "id": "medication-1",
        "status": "active",
        "medicationCodeableConcept": {
          "coding": [
            {
              "system": "http://www.nlm.nih.gov/research/umls/rxnorm",
              "code": "308416",
              "display": "aspirin 81 MG Delayed Release Oral Tablet"
            }
          ]
        },
        "subject": {
          "reference": "Patient/patient-1"
        },
        "effectiveDateTime": "2017-01-06T00:00:00Z",
        "dosage": [
          {
            "text": "Take 1 tablet of aspirin 81 MG Delayed Release Oral Tablet",
            "timing": {
              "repeat": {
                "frequency": 2,
                "period": 1,
                "periodUnit": "d"
              }
            },
            "doseAndRate": [
              {
                "doseQuantity": {
                  "value": 1,
                  "unit": "tablet"
                }
              }
            ]
          }
        ]
      }
    },
    {
      "fullUrl": "http://example.org/fhir/Patient/patient-2",
      "resource": {
        "resourceType": "Patient",
        "id": "patient-2",
        "name": [
          {
            "use": "official",
            "family": "Gregory",
            "given": [
              "Taylor"
            ]
          }
        ],
        "gender": "female",
        "birthDate": "1988-02-16",
        "address": [
          {
            "use": "home",
            "line": [
              "910 Ross Crossroad Suite 811"
            ],
            "city": "South James",
            "state": "Arizona",
            "postalCode": "39119"
          }
        ],
        "maritalStatus": {
          "coding": [
            {
              "system": "http://terminology.hl7.org/CodeSystem/v3-MaritalStatus",
              "code": "W"
            }
          ]
        }
      }
    },
    {
      "fullUrl": "http://example.org/fhir/Observation/observation-2-bmi",
      "resource": {
        "resourceType": "Observation",
        "id": "observation-2-bmi",
        "status": "final",
        "code": {
          "coding": [
            {
              "system": "http://loinc.org",
              "code": "39156-5",
              "display": "Body mass index (BMI) [Ratio]"
            }
          ]
        },
        "subject": {
          "reference": "Patient/patient-2"
        },
        "effectiveDateTime": "2017-01-19T00:00:00Z",
        "valueQuantity": {
          "value": 19.4,
          "unit": "kg/m2",
          "system": "http://unitsofmeasure.org",
          "code": "kg/m2"
        }
      }
    },
    {
      "fullUrl": "http://example.org/fhir/Observation/observation-2-bp",
      "resource": {
        "resourceType": "Observation",
        "id": "observation-2-bp",
        "status": "final",
        "code": {
          "coding": [
            {
              "system": "http://loinc.org",
              "code": "85354-9",
              "display": "Blood pressure panel with all children optional"
            }
          ]
        },
        "subject": {
          "reference": "Patient/patient-2"
        },
        "effectiveDateTime": "2017-01-19T00:00:00Z",
        "component": [
          {
            "code": {
              "coding": [
                {
                  "system": "http://loinc.org",
                  "code": "8480-6",
                  "display": "Systolic blood pressure"
                }
              ]
            },
            "valueQuantity": {
              "value": 179,
              "unit": "mmHg",
              "system": "http://unitsofmeasure.org",
              "code": "mm[Hg]"
            }
          },
          {
            "code": {
              "coding": [
                {
                  "system": "http://loinc.org",
                  "code": "8462-4",
                  "display": "Diastolic blood pressure"
                }
              ]
            },
            "valueQuantity": {
              "value": 109,
              "unit": "mmHg",
              "system": "http://unitsofmeasure.org",
              "code": "mm[Hg]"
            }
          }
        ]
      }
    },
    {
      "fullUrl": "http://example.org/fhir/Observation/observation-2-cholesterol",
      "resource": {
        "resourceType": "Observation",
        "id": "observation-2-cholesterol",
        "status": "final",
        "code": {
          "coding": [
            {
              "system": "http://loinc.org",
              "code": "2093-3",
              "display": "Cholesterol total"
            }
          ]
        },
        "subject": {
          "reference": "Patient/patient-2"
        },
        "effectiveDateTime": "2017-01-19T00:00:00Z",
        "valueQuantity": {
          "value": 223,
          "unit": "mg/dL",
          "system": "http://unitsofmeasure.org",
          "code": "mg/dL"
        }
      }
    },
    {
      "fullUrl": "http://example.org/fhir/MedicationStatement/medication-2",
      "resource": {
        "resourceType": "MedicationStatement",
        "id": "medication-2",
        "status": "active",
        "medicationCodeableConcept": {
          "coding": [
            {
              "system": "http://www.nlm.nih.gov/research/umls/rxnorm",
              "code": "2003656",
              "display": "Omeprazole 20 MG Disintegrating Oral Tablet"
            }
          ]
        },
        "subject": {
          "reference": "Patient/patient-2"
        },
        "effectiveDateTime": "2017-01-19T00:00:00Z",
        "dosage": [
          {
            "text": "Take 1 tablet of Omeprazole 20 MG Disintegrating Oral Tablet",
            "timing": {
              "repeat": {
                "frequency": 2,
                "period": 1,
                "periodUnit": "d"
              }
            },
            "doseAndRate": [
              {
                "doseQuantity": {
                  "value": 1,
                  "unit": "tablet"
                }
              }
            ]
          }
        ]
      }
    }
  ]
}